File: PVC_Mon1_Late (1).csv
"Time", "Load (lb)", "Position (in)", "AxialStrain (in)", "TransverseStrain (in)", "Auxiliary ()", "Control Out (V)", "Stress (psi)"
0.0, 1.95527, 0.0, NaN, NaN, NaN, -0.0177013, 9.761912
0.01, 1.95527, 0.0, NaN, NaN, NaN, -0.0177013, 9.761912
0.02, 1.95527, 0.0, NaN, NaN, NaN, -0.007935055, 9.761912
0.03, 1.95527, 0.0, NaN, NaN, NaN, 6.103888E-4, 9.761912
0.04, 1.95527, 0.0, NaN, NaN, NaN, 0.009155832, 9.761912
0.05, 1.95527, 0.0, NaN, NaN, NaN, 0.0189221, 9.761912
0.06, 0.0, 0.0, NaN, NaN, NaN, 0.0189221, 0.0
0.07, 1.95527, 0.0, NaN, NaN, NaN, 0.0274675, 9.761912
0.08, 1.95527, 0.0, NaN, NaN, NaN, 0.0372337, 9.761912
0.09, 1.95527, 0.0, NaN, NaN, NaN, 0.04577916, 9.761912
0.1, 1.95527, 0.0, NaN, NaN, NaN, 0.0555454, 9.761912
0.11, 1.95527, 0.0, NaN, NaN, NaN, 0.0555454, 9.761912
0.12, 1.95527, 0.0, NaN, NaN, NaN, 0.0640908, 9.761912
0.13, 0.0, 0.0, NaN, NaN, NaN, 0.07385705, 0.0
0.14, 1.95527, 0.0, NaN, NaN, NaN, 0.08362327, 9.761912
0.15, 1.95527, 0.0, NaN, NaN, NaN, 0.09216871, 9.761912
0.16, 1.95527, 0.0, NaN, NaN, NaN, 0.09216871, 9.761912
0.17, 1.95527, 0.0, NaN, NaN, NaN, 0.101935, 9.761912
0.18, 0.0, 0.0, NaN, NaN, NaN, 0.11048, 0.0
0.19, 1.95527, 0.0, NaN, NaN, NaN, 0.1202466, 9.761912
0.2, 1.95527, 0.0, NaN, NaN, NaN, 0.128792, 9.761912
0.21, 0.0, 0.0, NaN, NaN, NaN, 0.128792, 0.0
0.22, 1.95527, 0.0, NaN, NaN, NaN, 0.138558, 9.761912
0.23, 0.0, 0.0, NaN, NaN, NaN, 0.148324, 0.0
0.24, 1.95527, 0.0, NaN, NaN, NaN, 0.15687, 9.761912
0.44, 3.91054, 0.000166667, NaN, NaN, NaN, 0.296039, 19.5238
0.64, 7.82109, 0.000416667, NaN, NaN, NaN, 0.407129, 39.04765
0.84, 11.7316, 6.666667E-4, NaN, NaN, NaN, 0.5267655, 58.5715
1.04, 15.6422, 0.00108333, NaN, NaN, NaN, 0.6280901, 78.0953
1.24, 23.4633, 0.0015, NaN, NaN, NaN, 0.729415, 117.143
1.44, 29.3291, 0.002, NaN, NaN, NaN, 0.822194, 146.429
1.64, 37.1502, 0.00258333, NaN, NaN, NaN, 0.9052066, 185.476
1.84, 46.9265, 0.00316667, NaN, NaN, NaN, 0.9882195, 234.286
2.04, 56.7029, 0.00383333, NaN, NaN, NaN, 1.06269, 283.095
2.24, 68.4345, 0.00458333, NaN, NaN, NaN, 1.12739, 341.667
2.44, 80.16614, 0.00525, NaN, NaN, NaN, 1.20063, 400.2384
2.64, 93.853, 0.006083334, NaN, NaN, NaN, 1.25679, 468.572
2.84, 107.54, 0.006916667, NaN, NaN, NaN, 1.31173, 536.905
3.04, 123.182, 0.00775, NaN, NaN, NaN, 1.36788, 615.0004
3.24, 140.78, 0.008666667, NaN, NaN, NaN, 1.41305, 702.858
3.44, 156.422, 0.00958333, NaN, NaN, NaN, 1.45944, 780.953
3.64, 174.019, 0.0105833, NaN, NaN, NaN, 1.49728, 868.8102
3.84, 195.527, 0.0115833, NaN, NaN, NaN, 1.533907, 976.1912
4.04, 215.08, 0.0125833, NaN, NaN, NaN, 1.57053, 1073.81
4.24, 234.6326, 0.0135833, NaN, NaN, NaN, 1.60715, 1171.43
4.44, 256.1406, 0.0145833, NaN, NaN, NaN, 1.645, 1278.81
4.64, 277.649, 0.01575, NaN, NaN, NaN, 1.66331, 1386.19
4.84, 301.112, 0.0168333, NaN, NaN, NaN, 1.69139, 1503.33
5.04, 324.575, 0.0179167, NaN, NaN, NaN, 1.71824, 1620.48
5.24, 348.038, 0.0190833, NaN, NaN, NaN, 1.73656, 1737.62
5.44, 371.5016, 0.02025, NaN, NaN, NaN, 1.75487, 1854.76
5.64, 396.9201, 0.0214167, NaN, NaN, NaN, 1.7744, 1981.67
5.84, 420.3834, 0.0225833, NaN, NaN, NaN, 1.792712, 2098.81
6.04, 445.8019, 0.02375, NaN, NaN, NaN, 1.81102, 2225.72
6.24, 471.22, 0.0249167, NaN, NaN, NaN, 1.82934, 2352.62
6.44, 496.639, 0.0260833, NaN, NaN, NaN, 1.847647, 2479.53
6.64, 524.013, 0.02725, NaN, NaN, NaN, 1.86596, 2616.19
6.84, 549.431, 0.0284167, NaN, NaN, NaN, 1.88427, 2743.1
7.04, 574.85, 0.0296667, NaN, NaN, NaN, 1.89404, 2870
7.24, 602.224, 0.0309167, NaN, NaN, NaN, 1.9038, 3006.669
7.44, 627.65, 0.0321667, NaN, NaN, NaN, 1.91235, 3133.61
7.64, 653.082, 0.0334167, NaN, NaN, NaN, 1.92211, 3260.585
7.84, 680.47, 0.03466667, NaN, NaN, NaN, 1.93066, 3397.32
8.04, 705.9016, 0.0359167, NaN, NaN, NaN, 1.940426, 3524.29
8.24, 733.2896, 0.03725, NaN, NaN, NaN, 1.940426, 3661.03
8.44, 758.721, 0.0385833, NaN, NaN, NaN, 1.94897, 3788.001
8.64, 786.1093, 0.03975, NaN, NaN, NaN, 1.95874, 3924.74
8.84, 811.541, 0.0410833, NaN, NaN, NaN, 1.95874, 4051.71
9.04, 836.973, 0.04233333, NaN, NaN, NaN, 1.968504, 4178.68
9.24, 862.404, 0.0435833, NaN, NaN, NaN, 1.97705, 4305.65
9.44, 887.8361, 0.0449167, NaN, NaN, NaN, 1.97705, 4432.621
9.64, 913.268, 0.04616667, NaN, NaN, NaN, 1.98682, 4559.59
9.84, 936.743, 0.04741667, NaN, NaN, NaN, 1.99536, 4676.8
10.04, 960.2186, 0.04875, NaN, NaN, NaN, 1.99536, 4793.999
10.24, 987.607, 0.05, NaN, NaN, NaN, 2.00513, 4930.74
10.44, 1011.082, 0.05125, NaN, NaN, NaN, 2.01367, 5047.94
10.64, 1034.56, 0.0525833, NaN, NaN, NaN, 2.01367, 5165.14
10.84, 1059.99, 0.0539167, NaN, NaN, NaN, 2.01367, 5292.114
11.04, 1085.42, 0.05525, NaN, NaN, NaN, 2.01367, 5419.08
11.24, 1106.94, 0.0565833, NaN, NaN, NaN, 2.01367, 5526.52
11.44, 1128.459, 0.0579167, NaN, NaN, NaN, 2.01367, 5633.958
11.64, 1149.98, 0.05925, NaN, NaN, NaN, 2.01367, 5741.39
11.84, 1173.45, 0.06058334, NaN, NaN, NaN, 2.01367, 5858.598
12.04, 1193.02, 0.0619167, NaN, NaN, NaN, 2.01367, 5956.268
12.24, 1210.62, 0.06325, NaN, NaN, NaN, 2.01367, 6044.17
12.44, 1230.19, 0.0645, NaN, NaN, NaN, 2.023439, 6141.84
12.64, 1249.75, 0.06583334, NaN, NaN, NaN, 2.03321, 6239.51
12.84, 1267.36, 0.06708334, NaN, NaN, NaN, 2.03321, 6327.412
13.04, 1284.96, 0.06841667, NaN, NaN, NaN, 2.03321, 6415.315
13.24, 1300.612, 0.06975, NaN, NaN, NaN, 2.03321, 6493.45
13.44, 1316.26, 0.07108334, NaN, NaN, NaN, 2.03321, 6571.587
13.64, 1329.96, 0.07241667, NaN, NaN, NaN, 2.03321, 6639.96
13.84, 1343.65, 0.07375, NaN, NaN, NaN, 2.03321, 6708.32
14.04, 1357.34, 0.07508334, NaN, NaN, NaN, 2.03321, 6776.693
14.24, 1367.13, 0.07641667, NaN, NaN, NaN, 2.03321, 6825.528
14.44, 1378.86, 0.07775, NaN, NaN, NaN, 2.03321, 6884.13
14.64, 1388.64, 0.07908334, NaN, NaN, NaN, 2.03321, 6932.965
14.84, 1394.51, 0.08041667, NaN, NaN, NaN, 2.03321, 6962.27
15.04, 1404.3, 0.08175, NaN, NaN, NaN, 2.03321, 7011.1
15.24, 1410.164, 0.08308333, NaN, NaN, NaN, 2.03321, 7040.4
15.44, 1414.08, 0.0844167, NaN, NaN, NaN, 2.03321, 7059.935
15.64, 1419.95, 0.08575, NaN, NaN, NaN, 2.03321, 7089.236
15.84, 1421.9, 0.08708334, NaN, NaN, NaN, 2.03321, 7099
16.04, 1425.81, 0.08833334, NaN, NaN, NaN, 2.04175, 7118.54
16.24, 1427.77, 0.0896667, NaN, NaN, NaN, 2.05152, 7128.304
16.44, 1429.73, 0.09091667, NaN, NaN, NaN, 2.05152, 7138.07
16.64, 1433.64, 0.09225, NaN, NaN, NaN, 2.05152, 7157.605
16.84, 1433.64, 0.09358334, NaN, NaN, NaN, 2.05152, 7157.605
17.04, 1433.64, 0.0949167, NaN, NaN, NaN, 2.05152, 7157.605
17.24, 1433.64, 0.09625, NaN, NaN, NaN, 2.05152, 7157.605
17.44, 1435.6, 0.09766667, NaN, NaN, NaN, 2.04175, 7167.372
17.64, 1433.64, 0.09900001, NaN, NaN, NaN, 2.04175, 7157.605
17.84, 1435.6, 0.100333, NaN, NaN, NaN, 2.04175, 7167.372
18.04, 1435.6, 0.101667, NaN, NaN, NaN, 2.04175, 7167.372
18.24, 1431.68, 0.103, NaN, NaN, NaN, 2.04175, 7147.84
18.44, 1433.64, 0.104333, NaN, NaN, NaN, 2.04175, 7157.605
18.64, 1431.68, 0.105667, NaN, NaN, NaN, 2.04175, 7147.84
18.84, 1431.68, 0.106917, NaN, NaN, NaN, 2.05152, 7147.84
19.04, 1429.73, 0.10825, NaN, NaN, NaN, 2.05152, 7138.07
19.24, 1427.77, 0.109583, NaN, NaN, NaN, 2.05152, 7128.304
19.44, 1427.77, 0.110917, NaN, NaN, NaN, 2.05152, 7128.304
19.64, 1425.81, 0.11225, NaN, NaN, NaN, 2.05152, 7118.54
19.84, 1425.81, 0.113583, NaN, NaN, NaN, 2.05152, 7118.54
20.04, 1423.86, 0.114917, NaN, NaN, NaN, 2.05152, 7108.77
20.24, 1423.86, 0.11625, NaN, NaN, NaN, 2.05152, 7108.77
20.44, 1421.9, 0.117583, NaN, NaN, NaN, 2.05152, 7099
20.64, 1419.95, 0.118917, NaN, NaN, NaN, 2.05152, 7089.236
20.84, 1419.95, 0.120333, NaN, NaN, NaN, 2.04175, 7089.236
21.04, 1417.99, 0.121667, NaN, NaN, NaN, 2.04175, 7079.47
21.24, 1416.03, 0.123, NaN, NaN, NaN, 2.04175, 7069.7
21.44, 1416.03, 0.124333, NaN, NaN, NaN, 2.04175, 7069.7
21.64, 1416.03, 0.125667, NaN, NaN, NaN, 2.05152, 7069.7
21.84, 1414.08, 0.126917, NaN, NaN, NaN, 2.05152, 7059.935
22.04, 1412.12, 0.12825, NaN, NaN, NaN, 2.05152, 7050.168
22.24, 1412.12, 0.129583, NaN, NaN, NaN, 2.05152, 7050.168
22.44, 1408.21, 0.130917, NaN, NaN, NaN, 2.05152, 7030.63
22.64, 1408.21, 0.13225, NaN, NaN, NaN, 2.05152, 7030.63
22.84, 1406.25, 0.133583, NaN, NaN, NaN, 2.05152, 7020.867
23.04, 1406.25, 0.134917, NaN, NaN, NaN, 2.05152, 7020.867
23.24, 1406.25, 0.13625, NaN, NaN, NaN, 2.05152, 7020.867
23.44, 1404.3, 0.137583, NaN, NaN, NaN, 2.05152, 7011.1
23.64, 1404.3, 0.138917, NaN, NaN, NaN, 2.05152, 7011.1
23.84, 1402.34, 0.140333, NaN, NaN, NaN, 2.04175, 7001.33
24.04, 1402.34, 0.141667, NaN, NaN, NaN, 2.04175, 7001.33
24.24, 1402.34, 0.143, NaN, NaN, NaN, 2.04175, 7001.33
24.44, 1398.43, 0.144333, NaN, NaN, NaN, 2.04175, 6981.8
24.64, 1396.47, 0.145667, NaN, NaN, NaN, 2.04175, 6972.03
24.84, 1396.47, 0.147, NaN, NaN, NaN, 2.04175, 6972.03
25.04, 1394.51, 0.148333, NaN, NaN, NaN, 2.05152, 6962.27
25.24, 1392.56, 0.149583, NaN, NaN, NaN, 2.05152, 6952.5
25.44, 1392.56, 0.150917, NaN, NaN, NaN, 2.05152, 6952.5
25.64, 1390.6, 0.15225, NaN, NaN, NaN, 2.05152, 6942.732
25.84, 1388.64, 0.153583, NaN, NaN, NaN, 2.05152, 6932.965
26.04, 1388.64, 0.154917, NaN, NaN, NaN, 2.05152, 6932.965
26.24, 1388.64, 0.15625, NaN, NaN, NaN, 2.05152, 6932.965
26.44, 1384.73, 0.157583, NaN, NaN, NaN, 2.05152, 6913.43
26.64, 1386.69, 0.158917, NaN, NaN, NaN, 2.05152, 6923.2
26.84, 1384.73, 0.16025, NaN, NaN, NaN, 2.05152, 6913.43
27.04, 1384.73, 0.161667, NaN, NaN, NaN, 2.04175, 6913.43
27.24, 1382.776, 0.163, NaN, NaN, NaN, 2.04175, 6903.664
27.44, 1382.776, 0.164333, NaN, NaN, NaN, 2.04175, 6903.664
27.64, 1380.82, 0.165667, NaN, NaN, NaN, 2.04175, 6893.9
27.84, 1378.86, 0.167, NaN, NaN, NaN, 2.04175, 6884.13
28.04, 1380.82, 0.168333, NaN, NaN, NaN, 2.05152, 6893.9
28.24, 1376.91, 0.169583, NaN, NaN, NaN, 2.05152, 6874.36
28.44, 1376.91, 0.170917, NaN, NaN, NaN, 2.05152, 6874.36
28.64, 1376.91, 0.17225, NaN, NaN, NaN, 2.05152, 6874.36
28.84, 1374.95, 0.173583, NaN, NaN, NaN, 2.05152, 6864.6
29.04, 1372.99, 0.174917, NaN, NaN, NaN, 2.05152, 6854.83
29.24, 1371.04, 0.17625, NaN, NaN, NaN, 2.05152, 6845.06
29.44, 1371.04, 0.177583, NaN, NaN, NaN, 2.05152, 6845.06
29.64, 1369.082, 0.178917, NaN, NaN, NaN, 2.05152, 6835.295
29.84, 1369.082, 0.18025, NaN, NaN, NaN, 2.05152, 6835.295
30.04, 1369.082, 0.181667, NaN, NaN, NaN, 2.05152, 6835.295
30.24, 1367.13, 0.183, NaN, NaN, NaN, 2.04175, 6825.528
30.44, 1367.13, 0.184333, NaN, NaN, NaN, 2.04175, 6825.528
30.64, 1367.13, 0.185667, NaN, NaN, NaN, 2.04175, 6825.528
30.84, 1365.17, 0.187, NaN, NaN, NaN, 2.04175, 6815.76
31.04, 1363.21, 0.188333, NaN, NaN, NaN, 2.04175, 6805.994
31.24, 1361.26, 0.189583, NaN, NaN, NaN, 2.05152, 6796.227
31.44, 1359.3, 0.190917, NaN, NaN, NaN, 2.05152, 6786.46
31.64, 1359.3, 0.19225, NaN, NaN, NaN, 2.05152, 6786.46
31.84, 1359.3, 0.193583, NaN, NaN, NaN, 2.05152, 6786.46
32.04, 1357.34, 0.194917, NaN, NaN, NaN, 2.05152, 6776.693
32.24, 1357.34, 0.19625, NaN, NaN, NaN, 2.05152, 6776.693
32.44, 1355.388, 0.197583, NaN, NaN, NaN, 2.05152, 6766.93
32.64, 1353.43, 0.198917, NaN, NaN, NaN, 2.05152, 6757.159
32.84, 1353.43, 0.20025, NaN, NaN, NaN, 2.05152, 6757.159
33.04, 1353.43, 0.201583, NaN, NaN, NaN, 2.05152, 6757.159
33.24, 1353.43, 0.203, NaN, NaN, NaN, 2.04175, 6757.159
33.44, 1349.52, 0.204333, NaN, NaN, NaN, 2.04175, 6737.63
33.64, 1349.52, 0.205667, NaN, NaN, NaN, 2.04175, 6737.63
33.84, 1347.56, 0.207, NaN, NaN, NaN, 2.04175, 6727.86
34.04, 1347.56, 0.208333, NaN, NaN, NaN, 2.04175, 6727.86
34.24, 1347.56, 0.209667, NaN, NaN, NaN, 2.04175, 6727.86
34.44, 1343.65, 0.210917, NaN, NaN, NaN, 2.05152, 6708.32
34.64, 1343.65, 0.21225, NaN, NaN, NaN, 2.05152, 6708.32
34.84, 1341.694, 0.213583, NaN, NaN, NaN, 2.05152, 6698.557
35.04, 1339.74, 0.214917, NaN, NaN, NaN, 2.05152, 6688.79
35.24, 1339.74, 0.21625, NaN, NaN, NaN, 2.05152, 6688.79
35.44, 1339.74, 0.217583, NaN, NaN, NaN, 2.05152, 6688.79
35.64, 1339.74, 0.218917, NaN, NaN, NaN, 2.05152, 6688.79
35.84, 1337.78, 0.22025, NaN, NaN, NaN, 2.05152, 6679.024
36.04, 1337.78, 0.221583, NaN, NaN, NaN, 2.05152, 6679.024
36.24, 1337.78, 0.223, NaN, NaN, NaN, 2.04175, 6679.024
36.44, 1335.83, 0.224333, NaN, NaN, NaN, 2.04175, 6669.26
36.64, 1333.87, 0.225667, NaN, NaN, NaN, 2.04175, 6659.49
36.84, 1331.91, 0.227, NaN, NaN, NaN, 2.04175, 6649.72
37.04, 1331.91, 0.228333, NaN, NaN, NaN, 2.04175, 6649.72
37.24, 1328.0, 0.229667, NaN, NaN, NaN, 2.04175, 6630.19
37.44, 1329.96, 0.231, NaN, NaN, NaN, 2.05152, 6639.96
37.64, 1328.0, 0.23225, NaN, NaN, NaN, 2.05152, 6630.19
37.84, 1326.04, 0.233583, NaN, NaN, NaN, 2.05152, 6620.42
38.04, 1328.0, 0.234917, NaN, NaN, NaN, 2.05152, 6630.19
38.24, 1324.09, 0.23625, NaN, NaN, NaN, 2.05152, 6610.655
38.44, 1324.09, 0.237583, NaN, NaN, NaN, 2.05152, 6610.655
38.64, 1324.09, 0.238917, NaN, NaN, NaN, 2.05152, 6610.655
38.84, 1322.13, 0.24025, NaN, NaN, NaN, 2.05152, 6600.89
39.04, 1322.13, 0.241583, NaN, NaN, NaN, 2.05152, 6600.89
39.24, 1320.17, 0.242917, NaN, NaN, NaN, 2.05152, 6591.12
39.44, 1322.13, 0.244333, NaN, NaN, NaN, 2.04175, 6600.89
39.64, 1320.17, 0.245667, NaN, NaN, NaN, 2.04175, 6591.12
39.84, 1318.22, 0.247083, NaN, NaN, NaN, 2.03321, 6581.354
40.04, 1316.26, 0.248417, NaN, NaN, NaN, 2.03321, 6571.587
40.24, 1316.26, 0.24975, NaN, NaN, NaN, 2.03321, 6571.587
40.44, 1316.26, 0.251, NaN, NaN, NaN, 2.04175, 6571.587
40.64, 1314.306, 0.252333, NaN, NaN, NaN, 2.04175, 6561.82
40.84, 1312.35, 0.253667, NaN, NaN, NaN, 2.04175, 6552.05
41.04, 1310.39, 0.254917, NaN, NaN, NaN, 2.05152, 6542.286
41.24, 1312.35, 0.25625, NaN, NaN, NaN, 2.05152, 6552.05
41.44, 1308.44, 0.257583, NaN, NaN, NaN, 2.05152, 6532.519
41.64, 1308.44, 0.258917, NaN, NaN, NaN, 2.05152, 6532.519
41.84, 1308.44, 0.26025, NaN, NaN, NaN, 2.05152, 6532.519
42.04, 1308.44, 0.261583, NaN, NaN, NaN, 2.05152, 6532.519
42.24, 1308.44, 0.262917, NaN, NaN, NaN, 2.05152, 6532.519
42.44, 1306.48, 0.264333, NaN, NaN, NaN, 2.04175, 6522.75
42.64, 1306.48, 0.2656667, NaN, NaN, NaN, 2.04175, 6522.75
42.84, 1304.52, 0.267083, NaN, NaN, NaN, 2.03321, 6512.99
43.04, 1302.57, 0.268417, NaN, NaN, NaN, 2.03321, 6503.22
43.24, 1302.57, 0.26975, NaN, NaN, NaN, 2.03321, 6503.22
43.44, 1300.612, 0.271083, NaN, NaN, NaN, 2.04175, 6493.45
43.64, 1300.612, 0.272333, NaN, NaN, NaN, 2.04175, 6493.45
43.84, 1296.7, 0.273667, NaN, NaN, NaN, 2.04175, 6473.917
44.04, 1296.7, 0.275, NaN, NaN, NaN, 2.05152, 6473.917
44.24, 1296.7, 0.27625, NaN, NaN, NaN, 2.05152, 6473.917
44.44, 1296.7, 0.277583, NaN, NaN, NaN, 2.05152, 6473.917
44.64, 1294.74, 0.278917, NaN, NaN, NaN, 2.05152, 6464.15
44.84, 1294.74, 0.28025, NaN, NaN, NaN, 2.05152, 6464.15
45.04, 1292.79, 0.281583, NaN, NaN, NaN, 2.05152, 6454.38
45.24, 1292.79, 0.2829167, NaN, NaN, NaN, 2.05152, 6454.38
45.44, 1292.79, 0.284333, NaN, NaN, NaN, 2.04175, 6454.38
45.64, 1290.83, 0.285667, NaN, NaN, NaN, 2.04175, 6444.616
45.84, 1290.83, 0.287083, NaN, NaN, NaN, 2.03321, 6444.616
46.04, 1288.87, 0.288417, NaN, NaN, NaN, 2.03321, 6434.849
46.24, 1290.83, 0.28975, NaN, NaN, NaN, 2.03321, 6444.616
46.44, 1286.92, 0.291083, NaN, NaN, NaN, 2.03321, 6425.08
46.64, 1284.96, 0.2924167, NaN, NaN, NaN, 2.03321, 6415.315
46.84, 1284.96, 0.293667, NaN, NaN, NaN, 2.04175, 6415.315
47.04, 1283.01, 0.295, NaN, NaN, NaN, 2.04175, 6405.55
47.24, 1283.01, 0.296333, NaN, NaN, NaN, 2.04175, 6405.55
47.44, 1281.05, 0.297583, NaN, NaN, NaN, 2.05152, 6395.78
47.64, 1281.05, 0.298917, NaN, NaN, NaN, 2.05152, 6395.78
47.84, 1279.09, 0.30025, NaN, NaN, NaN, 2.05152, 6386.01
48.04, 1279.09, 0.301583, NaN, NaN, NaN, 2.05152, 6386.01
48.24, 1279.09, 0.302917, NaN, NaN, NaN, 2.05152, 6386.01
48.44, 1277.14, 0.30425, NaN, NaN, NaN, 2.05152, 6376.25
48.64, 1277.14, 0.3056667, NaN, NaN, NaN, 2.04175, 6376.25
48.84, 1277.14, 0.307, NaN, NaN, NaN, 2.04175, 6376.25
49.04, 1275.18, 0.308417, NaN, NaN, NaN, 2.03321, 6366.48
49.24, 1273.22, 0.30975, NaN, NaN, NaN, 2.03321, 6356.714
49.44, 1273.22, 0.311083, NaN, NaN, NaN, 2.03321, 6356.714
49.64, 1273.22, 0.312417, NaN, NaN, NaN, 2.04175, 6356.714
49.84, 1271.27, 0.313667, NaN, NaN, NaN, 2.04175, 6346.947
50.04, 1269.31, 0.315, NaN, NaN, NaN, 2.04175, 6337.18
50.24, 1269.31, 0.316333, NaN, NaN, NaN, 2.04175, 6337.18
50.44, 1267.36, 0.317583, NaN, NaN, NaN, 2.05152, 6327.412
50.64, 1267.36, 0.318917, NaN, NaN, NaN, 2.05152, 6327.412
50.84, 1263.44, 0.32025, NaN, NaN, NaN, 2.05152, 6307.879
51.04, 1265.4, 0.321583, NaN, NaN, NaN, 2.05152, 6317.646
51.24, 1263.44, 0.3229167, NaN, NaN, NaN, 2.05152, 6307.879
51.44, 1261.49, 0.32425, NaN, NaN, NaN, 2.05152, 6298.11
51.64, 1261.49, 0.325583, NaN, NaN, NaN, 2.05152, 6298.11
51.84, 1261.49, 0.327, NaN, NaN, NaN, 2.04175, 6298.11
52.04, 1261.49, 0.328333, NaN, NaN, NaN, 2.04175, 6298.11
52.24, 1259.53, 0.329667, NaN, NaN, NaN, 2.04175, 6288.345
52.44, 1257.57, 0.331083, NaN, NaN, NaN, 2.03321, 6278.58
52.64, 1257.57, 0.332417, NaN, NaN, NaN, 2.04175, 6278.58
52.84, 1255.62, 0.333667, NaN, NaN, NaN, 2.04175, 6268.81
53.04, 1255.62, 0.335, NaN, NaN, NaN, 2.04175, 6268.81
53.24, 1255.62, 0.336333, NaN, NaN, NaN, 2.04175, 6268.81
53.44, 1253.66, 0.337667, NaN, NaN, NaN, 2.05152, 6259.04
53.64, 1251.705, 0.3389167, NaN, NaN, NaN, 2.05152, 6249.277
53.84, 1251.705, 0.34025, NaN, NaN, NaN, 2.05152, 6249.277
54.04, 1249.75, 0.341583, NaN, NaN, NaN, 2.05152, 6239.51
54.24, 1247.79, 0.342917, NaN, NaN, NaN, 2.05152, 6229.74
54.44, 1249.75, 0.34425, NaN, NaN, NaN, 2.05152, 6239.51
54.64, 1245.836, 0.345583, NaN, NaN, NaN, 2.05152, 6219.976
54.84, 1245.836, 0.347, NaN, NaN, NaN, 2.04175, 6219.976
55.04, 1245.836, 0.348333, NaN, NaN, NaN, 2.04175, 6219.976
55.24, 1245.836, 0.34975, NaN, NaN, NaN, 2.03321, 6219.976
55.44, 1243.88, 0.351083, NaN, NaN, NaN, 2.03321, 6210.209
55.64, 1241.92, 0.3524167, NaN, NaN, NaN, 2.03321, 6200.44
55.84, 1241.92, 0.35375, NaN, NaN, NaN, 2.03321, 6200.44
56.04, 1241.92, 0.355083, NaN, NaN, NaN, 2.04175, 6200.44
56.24, 1238.011, 0.356333, NaN, NaN, NaN, 2.04175, 6180.908
56.44, 1238.011, 0.357667, NaN, NaN, NaN, 2.04175, 6180.908
56.64, 1236.05, 0.359, NaN, NaN, NaN, 2.04175, 6171.141
56.84, 1236.05, 0.360333, NaN, NaN, NaN, 2.05152, 6171.141
57.04, 1234.1, 0.361583, NaN, NaN, NaN, 2.05152, 6161.374
57.24, 1234.1, 0.362917, NaN, NaN, NaN, 2.05152, 6161.374
57.44, 1232.14, 0.36425, NaN, NaN, NaN, 2.05152, 6151.61
57.64, 1232.14, 0.365583, NaN, NaN, NaN, 2.05152, 6151.61
57.84, 1232.14, 0.3669167, NaN, NaN, NaN, 2.05152, 6151.61
58.04, 1228.23, 0.368333, NaN, NaN, NaN, 2.04175, 6132.07
58.24, 1230.19, 0.3696667, NaN, NaN, NaN, 2.04175, 6141.84
58.44, 1228.23, 0.371083, NaN, NaN, NaN, 2.03321, 6132.07
58.64, 1228.23, 0.372417, NaN, NaN, NaN, 2.03321, 6132.07
58.84, 1226.27, 0.37375, NaN, NaN, NaN, 2.03321, 6122.31
59.04, 1222.36, 0.375083, NaN, NaN, NaN, 2.03321, 6102.772
59.24, 1222.36, 0.376417, NaN, NaN, NaN, 2.03321, 6102.772
59.44, 1222.36, 0.377667, NaN, NaN, NaN, 2.04175, 6102.772
59.64, 1222.36, 0.379, NaN, NaN, NaN, 2.04175, 6102.772
59.84, 1220.4, 0.380333, NaN, NaN, NaN, 2.04175, 6093.006
60.04, 1218.45, 0.381583, NaN, NaN, NaN, 2.05152, 6083.24
60.24, 1218.45, 0.3829167, NaN, NaN, NaN, 2.05152, 6083.24
60.44, 1216.49, 0.38425, NaN, NaN, NaN, 2.05152, 6073.471
60.64, 1216.49, 0.385583, NaN, NaN, NaN, 2.05152, 6073.471
60.84, 1214.54, 0.3869167, NaN, NaN, NaN, 2.05152, 6063.705
61.04, 1214.54, 0.388333, NaN, NaN, NaN, 2.05152, 6063.705
61.24, 1212.58, 0.389667, NaN, NaN, NaN, 2.04175, 6053.94
61.44, 1212.58, 0.391083, NaN, NaN, NaN, 2.03321, 6053.94
61.64, 1212.58, 0.3924167, NaN, NaN, NaN, 2.03321, 6053.94
61.84, 1208.67, 0.39375, NaN, NaN, NaN, 2.03321, 6034.4
62.04, 1208.67, 0.395083, NaN, NaN, NaN, 2.03321, 6034.4
62.24, 1206.71, 0.3964167, NaN, NaN, NaN, 2.03321, 6024.64
62.44, 1204.75, 0.39775, NaN, NaN, NaN, 2.03321, 6014.87
62.64, 1204.75, 0.399083, NaN, NaN, NaN, 2.03321, 6014.87
62.84, 1204.75, 0.400333, NaN, NaN, NaN, 2.04175, 6014.87
63.04, 1202.8, 0.401667, NaN, NaN, NaN, 2.04175, 6005.1
63.24, 1200.84, 0.403, NaN, NaN, NaN, 2.04175, 5995.336
63.44, 1198.89, 0.40425, NaN, NaN, NaN, 2.05152, 5985.569
63.64, 1198.89, 0.405583, NaN, NaN, NaN, 2.05152, 5985.569
63.84, 1198.89, 0.406917, NaN, NaN, NaN, 2.05152, 5985.569
64.04, 1196.929, 0.408333, NaN, NaN, NaN, 2.04175, 5975.802
64.24, 1196.929, 0.4096667, NaN, NaN, NaN, 2.04175, 5975.802
64.44, 1194.97, 0.411, NaN, NaN, NaN, 2.04175, 5966.03
64.64, 1194.97, 0.412417, NaN, NaN, NaN, 2.03321, 5966.03
64.84, 1193.02, 0.41375, NaN, NaN, NaN, 2.03321, 5956.268
65.04, 1191.06, 0.415083, NaN, NaN, NaN, 2.03321, 5946.5
65.24, 1191.06, 0.4164167, NaN, NaN, NaN, 2.03321, 5946.5
65.44, 1189.1, 0.41775, NaN, NaN, NaN, 2.03321, 5936.734
65.64, 1187.15, 0.419083, NaN, NaN, NaN, 2.03321, 5926.97
65.84, 1187.15, 0.420417, NaN, NaN, NaN, 2.03321, 5926.97
66.04, 1185.19, 0.421667, NaN, NaN, NaN, 2.04175, 5917.2
66.24, 1183.235, 0.423, NaN, NaN, NaN, 2.04175, 5907.433
66.44, 1183.235, 0.424333, NaN, NaN, NaN, 2.04175, 5907.433
66.64, 1181.28, 0.425583, NaN, NaN, NaN, 2.05152, 5897.666
66.84, 1179.32, 0.4269167, NaN, NaN, NaN, 2.05152, 5887.9
67.04, 1179.32, 0.42825, NaN, NaN, NaN, 2.05152, 5887.9
67.24, 1177.37, 0.429667, NaN, NaN, NaN, 2.04175, 5878.132
67.44, 1177.37, 0.431, NaN, NaN, NaN, 2.04175, 5878.132
67.64, 1175.41, 0.432417, NaN, NaN, NaN, 2.03321, 5868.365
67.84, 1175.41, 0.43375, NaN, NaN, NaN, 2.03321, 5868.365
68.04, 1173.45, 0.435083, NaN, NaN, NaN, 2.03321, 5858.598
68.24, 1171.5, 0.436417, NaN, NaN, NaN, 2.03321, 5848.831
68.44, 1173.45, 0.43775, NaN, NaN, NaN, 2.03321, 5858.598
68.64, 1169.541, 0.439083, NaN, NaN, NaN, 2.03321, 5839.06
68.84, 1169.541, 0.4404167, NaN, NaN, NaN, 2.03321, 5839.06
69.04, 1167.58, 0.44175, NaN, NaN, NaN, 2.03321, 5829.3
69.24, 1165.63, 0.443, NaN, NaN, NaN, 2.04175, 5819.53
69.44, 1165.63, 0.444333, NaN, NaN, NaN, 2.04175, 5819.53
69.64, 1163.67, 0.445667, NaN, NaN, NaN, 2.04175, 5809.763
69.84, 1161.72, 0.446917, NaN, NaN, NaN, 2.05152, 5800
70.04, 1161.72, 0.44825, NaN, NaN, NaN, 2.05152, 5800
70.24, 1159.76, 0.449667, NaN, NaN, NaN, 2.05152, 5790.23
70.44, 1157.8, 0.451, NaN, NaN, NaN, 2.04175, 5780.46
70.64, 1157.8, 0.4524167, NaN, NaN, NaN, 2.03321, 5780.46
70.84, 1157.8, 0.45375, NaN, NaN, NaN, 2.03321, 5780.46
71.04, 1155.847, 0.455083, NaN, NaN, NaN, 2.03321, 5770.696
71.24, 1153.89, 0.456417, NaN, NaN, NaN, 2.03321, 5760.928
71.44, 1153.89, 0.45775, NaN, NaN, NaN, 2.03321, 5760.928
71.64, 1151.93, 0.459083, NaN, NaN, NaN, 2.03321, 5751.16
71.84, 1149.98, 0.460417, NaN, NaN, NaN, 2.03321, 5741.39
72.04, 1148.02, 0.46175, NaN, NaN, NaN, 2.03321, 5731.63
72.24, 1146.07, 0.463083, NaN, NaN, NaN, 2.03321, 5721.861
72.44, 1146.07, 0.464333, NaN, NaN, NaN, 2.04175, 5721.861
72.64, 1144.11, 0.465667, NaN, NaN, NaN, 2.04175, 5712.09
72.84, 1144.11, 0.466917, NaN, NaN, NaN, 2.05152, 5712.09
73.04, 1142.15, 0.46825, NaN, NaN, NaN, 2.05152, 5702.327
73.24, 1142.15, 0.469583, NaN, NaN, NaN, 2.05152, 5702.327
73.44, 1140.2, 0.470917, NaN, NaN, NaN, 2.05152, 5692.56
73.64, 1140.2, 0.472333, NaN, NaN, NaN, 2.04175, 5692.56
73.84, 1138.24, 0.473667, NaN, NaN, NaN, 2.04175, 5682.793
74.04, 1136.284, 0.475083, NaN, NaN, NaN, 2.03321, 5673.03
74.24, 1136.284, 0.476417, NaN, NaN, NaN, 2.03321, 5673.03
74.44, 1134.33, 0.47775, NaN, NaN, NaN, 2.03321, 5663.259
74.64, 1134.33, 0.479083, NaN, NaN, NaN, 2.03321, 5663.259
74.84, 1132.37, 0.480417, NaN, NaN, NaN, 2.03321, 5653.49
75.04, 1132.37, 0.48175, NaN, NaN, NaN, 2.03321, 5653.49
75.24, 1130.42, 0.483, NaN, NaN, NaN, 2.04175, 5643.725
75.44, 1128.459, 0.484333, NaN, NaN, NaN, 2.04175, 5633.958
75.64, 1126.5, 0.4856667, NaN, NaN, NaN, 2.05152, 5624.191
75.84, 1126.5, 0.4869167, NaN, NaN, NaN, 2.05152, 5624.191
76.04, 1126.5, 0.48825, NaN, NaN, NaN, 2.05152, 5624.191
76.24, 1124.55, 0.489583, NaN, NaN, NaN, 2.05152, 5614.424
76.44, 1124.55, 0.490917, NaN, NaN, NaN, 2.05152, 5614.424
76.64, 1122.59, 0.49225, NaN, NaN, NaN, 2.05152, 5604.657
76.84, 1120.63, 0.493667, NaN, NaN, NaN, 2.04175, 5594.89
77.04, 1120.63, 0.495, NaN, NaN, NaN, 2.04175, 5594.89
77.24, 1118.68, 0.4964167, NaN, NaN, NaN, 2.03321, 5585.123
77.44, 1116.72, 0.49775, NaN, NaN, NaN, 2.03321, 5575.356
77.64, 1116.72, 0.499083, NaN, NaN, NaN, 2.03321, 5575.356
77.84, 1116.72, 0.5004167, NaN, NaN, NaN, 2.03321, 5575.356
78.04, 1114.765, 0.50175, NaN, NaN, NaN, 2.04175, 5565.589
78.24, 1112.81, 0.503, NaN, NaN, NaN, 2.04175, 5555.82
78.44, 1110.85, 0.5043334, NaN, NaN, NaN, 2.04175, 5546.055
78.64, 1110.85, 0.5056667, NaN, NaN, NaN, 2.05152, 5546.055
78.84, 1108.9, 0.5069167, NaN, NaN, NaN, 2.05152, 5536.29
79.04, 1108.9, 0.50825, NaN, NaN, NaN, 2.05152, 5536.29
79.24, 1106.94, 0.509583, NaN, NaN, NaN, 2.05152, 5526.52
79.44, 1106.94, 0.510917, NaN, NaN, NaN, 2.05152, 5526.52
79.64, 1104.98, 0.51225, NaN, NaN, NaN, 2.05152, 5516.75
79.84, 1104.98, 0.513583, NaN, NaN, NaN, 2.05152, 5516.75
80.04, 1104.98, 0.515, NaN, NaN, NaN, 2.04175, 5516.75
80.24, 1103.03, 0.516333, NaN, NaN, NaN, 2.04175, 5506.99
80.44, 1101.071, 0.51775, NaN, NaN, NaN, 2.03321, 5497.22
80.64, 1103.03, 0.5190833, NaN, NaN, NaN, 2.03321, 5506.99
80.84, 1099.11, 0.5204167, NaN, NaN, NaN, 2.03321, 5487.453
81.04, 1099.11, 0.521667, NaN, NaN, NaN, 2.04175, 5487.453
81.24, 1097.16, 0.523, NaN, NaN, NaN, 2.04175, 5477.686
81.44, 1097.16, 0.524333, NaN, NaN, NaN, 2.04175, 5477.686
81.64, 1095.2, 0.5255834, NaN, NaN, NaN, 2.05152, 5467.92
81.84, 1095.2, 0.5269167, NaN, NaN, NaN, 2.05152, 5467.92
82.04, 1093.246, 0.52825, NaN, NaN, NaN, 2.05152, 5458.15
82.24, 1091.29, 0.529583, NaN, NaN, NaN, 2.05152, 5448.39
82.44, 1093.246, 0.5309167, NaN, NaN, NaN, 2.05152, 5458.15
82.64, 1091.29, 0.53225, NaN, NaN, NaN, 2.05152, 5448.39
82.84, 1091.29, 0.533583, NaN, NaN, NaN, 2.05152, 5448.39
83.04, 1091.29, 0.5349167, NaN, NaN, NaN, 2.05152, 5448.39
83.24, 1089.33, 0.5363333, NaN, NaN, NaN, 2.04175, 5438.62
83.44, 1087.38, 0.5376667, NaN, NaN, NaN, 2.04175, 5428.85
83.64, 1087.38, 0.539, NaN, NaN, NaN, 2.04175, 5428.85
83.84, 1087.38, 0.540333, NaN, NaN, NaN, 2.04175, 5428.85
84.04, 1087.38, 0.5416667, NaN, NaN, NaN, 2.04175, 5428.85
84.24, 1085.42, 0.543, NaN, NaN, NaN, 2.04175, 5419.08
84.44, 1081.51, 0.54425, NaN, NaN, NaN, 2.05152, 5399.55
84.64, 1083.46, 0.545583, NaN, NaN, NaN, 2.05152, 5409.318
84.84, 1083.46, 0.5469167, NaN, NaN, NaN, 2.05152, 5409.318
85.04, 1081.51, 0.54825, NaN, NaN, NaN, 2.05152, 5399.55
85.24, 1079.552, 0.5495834, NaN, NaN, NaN, 2.05152, 5389.784
85.44, 1079.552, 0.5509167, NaN, NaN, NaN, 2.05152, 5389.784
85.64, 1079.552, 0.55225, NaN, NaN, NaN, 2.05152, 5389.784
85.84, 1079.552, 0.5535833, NaN, NaN, NaN, 2.05152, 5389.784
86.04, 1077.6, 0.5549167, NaN, NaN, NaN, 2.05152, 5380.017
86.24, 1077.6, 0.55625, NaN, NaN, NaN, 2.05152, 5380.017
86.44, 1075.64, 0.557667, NaN, NaN, NaN, 2.04175, 5370.25
86.64, 1073.68, 0.559, NaN, NaN, NaN, 2.04175, 5360.483
86.84, 1073.68, 0.5603334, NaN, NaN, NaN, 2.04175, 5360.483
87.04, 1073.68, 0.561667, NaN, NaN, NaN, 2.04175, 5360.483
87.24, 1071.73, 0.563, NaN, NaN, NaN, 2.04175, 5350.716
87.44, 1071.73, 0.5643333, NaN, NaN, NaN, 2.05152, 5350.716
87.64, 1071.73, 0.565583, NaN, NaN, NaN, 2.05152, 5350.716
87.84, 1069.77, 0.566917, NaN, NaN, NaN, 2.05152, 5340.95
88.04, 1069.77, 0.56825, NaN, NaN, NaN, 2.05152, 5340.95
88.24, 1069.77, 0.569583, NaN, NaN, NaN, 2.05152, 5340.95
88.44, 1069.77, 0.5709167, NaN, NaN, NaN, 2.05152, 5340.95
88.64, 1067.81, 0.57225, NaN, NaN, NaN, 2.05152, 5331.18
88.84, 1065.86, 0.573583, NaN, NaN, NaN, 2.05152, 5321.415
89.04, 1067.81, 0.574917, NaN, NaN, NaN, 2.05152, 5331.18
89.24, 1065.86, 0.57625, NaN, NaN, NaN, 2.05152, 5321.415
89.44, 1065.86, 0.5775834, NaN, NaN, NaN, 2.05152, 5321.415
89.64, 1065.86, 0.579, NaN, NaN, NaN, 2.05152, 5321.415
89.84, 1063.9, 0.580333, NaN, NaN, NaN, 2.04175, 5311.648
90.04, 1063.9, 0.5816667, NaN, NaN, NaN, 2.04175, 5311.648
90.24, 1061.95, 0.583, NaN, NaN, NaN, 2.05152, 5301.88
90.44, 1061.95, 0.58425, NaN, NaN, NaN, 2.05152, 5301.88
90.64, 1061.95, 0.5855833, NaN, NaN, NaN, 2.05152, 5301.88
90.84, 1061.95, 0.5869167, NaN, NaN, NaN, 2.05152, 5301.88
91.04, 1059.99, 0.58825, NaN, NaN, NaN, 2.05152, 5292.114
91.24, 1059.99, 0.589583, NaN, NaN, NaN, 2.05152, 5292.114
91.44, 1058.03, 0.5909167, NaN, NaN, NaN, 2.05152, 5282.347
91.64, 1059.99, 0.59225, NaN, NaN, NaN, 2.05152, 5292.114
91.84, 1058.03, 0.593583, NaN, NaN, NaN, 2.05152, 5282.347
92.04, 1056.08, 0.5949167, NaN, NaN, NaN, 2.05152, 5272.58
92.24, 1056.08, 0.59625, NaN, NaN, NaN, 2.05152, 5272.58
92.44, 1058.03, 0.597583, NaN, NaN, NaN, 2.05152, 5282.347
92.64, 1056.08, 0.5989167, NaN, NaN, NaN, 2.05152, 5272.58
92.84, 1056.08, 0.60025, NaN, NaN, NaN, 2.05152, 5272.58
93.04, 1056.08, 0.6016667, NaN, NaN, NaN, 2.04175, 5272.58
93.24, 1056.08, 0.603, NaN, NaN, NaN, 2.04175, 5272.58
93.44, 1054.12, 0.60425, NaN, NaN, NaN, 2.05152, 5262.813
93.64, 1054.12, 0.605583, NaN, NaN, NaN, 2.05152, 5262.813
93.84, 1054.12, 0.606917, NaN, NaN, NaN, 2.05152, 5262.813
94.04, 1054.12, 0.60825, NaN, NaN, NaN, 2.05152, 5262.813
94.24, 1052.164, 0.6095833, NaN, NaN, NaN, 2.05152, 5253.046
94.44, 1052.164, 0.6109167, NaN, NaN, NaN, 2.05152, 5253.046
94.64, 1050.21, 0.61225, NaN, NaN, NaN, 2.05152, 5243.28
94.84, 1052.164, 0.6135833, NaN, NaN, NaN, 2.05152, 5253.046
95.04, 1050.21, 0.6149167, NaN, NaN, NaN, 2.05152, 5243.28
95.24, 1050.21, 0.61625, NaN, NaN, NaN, 2.05152, 5243.28
95.44, 1048.25, 0.617583, NaN, NaN, NaN, 2.05152, 5233.512
95.64, 1050.21, 0.618917, NaN, NaN, NaN, 2.05152, 5243.28
95.84, 1050.21, 0.6203334, NaN, NaN, NaN, 2.04175, 5243.28
96.04, 1050.21, 0.621667, NaN, NaN, NaN, 2.04175, 5243.28
96.24, 1048.25, 0.623, NaN, NaN, NaN, 2.04175, 5233.512
96.44, 1046.295, 0.6243334, NaN, NaN, NaN, 2.04175, 5223.75
96.64, 1048.25, 0.6255833, NaN, NaN, NaN, 2.05152, 5233.512
96.84, 1048.25, 0.6269167, NaN, NaN, NaN, 2.05152, 5233.512
97.04, 1046.295, 0.62825, NaN, NaN, NaN, 2.05152, 5223.75
97.24, 1044.34, 0.629583, NaN, NaN, NaN, 2.05152, 5213.98
97.44, 1046.295, 0.6309167, NaN, NaN, NaN, 2.05152, 5223.75
97.64, 1044.34, 0.6322501, NaN, NaN, NaN, 2.05152, 5213.98
97.84, 1042.38, 0.633583, NaN, NaN, NaN, 2.05152, 5204.211
98.04, 1044.34, 0.6349167, NaN, NaN, NaN, 2.05152, 5213.98
98.24, 1042.38, 0.63625, NaN, NaN, NaN, 2.05152, 5204.211
98.44, 1044.34, 0.6375834, NaN, NaN, NaN, 2.05152, 5213.98
98.64, 1042.38, 0.6389167, NaN, NaN, NaN, 2.05152, 5204.211
98.84, 1042.38, 0.64025, NaN, NaN, NaN, 2.05152, 5204.211
99.04, 1042.38, 0.641667, NaN, NaN, NaN, 2.05152, 5204.211
99.24, 1044.34, 0.643, NaN, NaN, NaN, 2.04175, 5213.98
99.44, 1042.38, 0.6443333, NaN, NaN, NaN, 2.04175, 5204.211
99.64, 1040.43, 0.645583, NaN, NaN, NaN, 2.05152, 5194.44
99.84, 1040.43, 0.6469167, NaN, NaN, NaN, 2.05152, 5194.44
100.04, 1040.43, 0.64825, NaN, NaN, NaN, 2.05152, 5194.44
100.24, 1040.43, 0.649583, NaN, NaN, NaN, 2.05152, 5194.44
100.44, 1038.47, 0.6509167, NaN, NaN, NaN, 2.05152, 5184.68
100.64, 1038.47, 0.65225, NaN, NaN, NaN, 2.05152, 5184.68
100.84, 1036.51, 0.653583, NaN, NaN, NaN, 2.05152, 5174.91
101.04, 1038.47, 0.6549167, NaN, NaN, NaN, 2.05152, 5184.68
101.24, 1036.51, 0.65625, NaN, NaN, NaN, 2.05152, 5174.91
101.44, 1036.51, 0.657583, NaN, NaN, NaN, 2.05152, 5174.91
101.64, 1038.47, 0.658917, NaN, NaN, NaN, 2.05152, 5184.68
101.84, 1036.51, 0.66025, NaN, NaN, NaN, 2.05152, 5174.91
102.04, 1036.51, 0.6615833, NaN, NaN, NaN, 2.05152, 5174.91
102.24, 1036.51, 0.662917, NaN, NaN, NaN, 2.05152, 5174.91
102.44, 1036.51, 0.66425, NaN, NaN, NaN, 2.05152, 5174.91
102.64, 1034.56, 0.6655833, NaN, NaN, NaN, 2.05152, 5165.14
102.84, 1034.56, 0.666917, NaN, NaN, NaN, 2.05152, 5165.14
103.04, 1036.51, 0.66825, NaN, NaN, NaN, 2.05152, 5174.91
103.24, 1034.56, 0.6695833, NaN, NaN, NaN, 2.05152, 5165.14
103.44, 1034.56, 0.6709167, NaN, NaN, NaN, 2.05152, 5165.14
103.64, 1034.56, 0.67225, NaN, NaN, NaN, 2.05152, 5165.14
103.84, 1034.56, 0.6735834, NaN, NaN, NaN, 2.05152, 5165.14
104.04, 1032.6, 0.674917, NaN, NaN, NaN, 2.05152, 5155.38
104.24, 1032.6, 0.67625, NaN, NaN, NaN, 2.05152, 5155.38
104.44, 1032.6, 0.6775834, NaN, NaN, NaN, 2.05152, 5155.38
104.64, 1030.64, 0.6789167, NaN, NaN, NaN, 2.05152, 5145.61
104.84, 1032.6, 0.68025, NaN, NaN, NaN, 2.05152, 5155.38
105.04, 1032.6, 0.681583, NaN, NaN, NaN, 2.05152, 5155.38
105.24, 1032.6, 0.6829167, NaN, NaN, NaN, 2.05152, 5155.38
105.44, 1030.64, 0.68425, NaN, NaN, NaN, 2.05152, 5145.61
105.64, 1032.6, 0.6856667, NaN, NaN, NaN, 2.05152, 5155.38
105.84, 1030.64, 0.6869167, NaN, NaN, NaN, 2.05152, 5145.61
106.04, 1030.64, 0.68825, NaN, NaN, NaN, 2.05152, 5145.61
106.24, 1028.69, 0.689583, NaN, NaN, NaN, 2.05152, 5135.843
106.44, 1026.73, 0.6909167, NaN, NaN, NaN, 2.05152, 5126.08
106.64, 1030.64, 0.69225, NaN, NaN, NaN, 2.05152, 5145.61
106.84, 1028.69, 0.693583, NaN, NaN, NaN, 2.05152, 5135.843
107.04, 1026.73, 0.694917, NaN, NaN, NaN, 2.05152, 5126.08
107.24, 1028.69, 0.69625, NaN, NaN, NaN, 2.05152, 5135.843
107.44, 1026.73, 0.6975834, NaN, NaN, NaN, 2.05152, 5126.08
107.64, 1026.73, 0.6989167, NaN, NaN, NaN, 2.05152, 5126.08
107.84, 1026.73, 0.70025, NaN, NaN, NaN, 2.05152, 5126.08
108.04, 1026.73, 0.7015833, NaN, NaN, NaN, 2.05152, 5126.08
108.24, 1028.69, 0.7029167, NaN, NaN, NaN, 2.05152, 5135.843
108.44, 1028.69, 0.70425, NaN, NaN, NaN, 2.05152, 5135.843
108.64, 1026.73, 0.7056667, NaN, NaN, NaN, 2.05152, 5126.08
108.84, 1026.73, 0.7070001, NaN, NaN, NaN, 2.04175, 5126.08
109.04, 1024.78, 0.70825, NaN, NaN, NaN, 2.05152, 5116.31
109.24, 1026.73, 0.709583, NaN, NaN, NaN, 2.05152, 5126.08
109.44, 1024.78, 0.710917, NaN, NaN, NaN, 2.05152, 5116.31
109.64, 1026.73, 0.71225, NaN, NaN, NaN, 2.05152, 5126.08
109.84, 1024.78, 0.713583, NaN, NaN, NaN, 2.05152, 5116.31
110.04, 1026.73, 0.714917, NaN, NaN, NaN, 2.05152, 5126.08
110.24, 1024.78, 0.71625, NaN, NaN, NaN, 2.05152, 5116.31
110.44, 1024.78, 0.7175833, NaN, NaN, NaN, 2.05152, 5116.31
110.64, 1024.78, 0.718917, NaN, NaN, NaN, 2.05152, 5116.31
110.84, 1024.78, 0.72025, NaN, NaN, NaN, 2.05152, 5116.31
111.04, 1022.82, 0.721583, NaN, NaN, NaN, 2.05152, 5106.54
111.24, 1022.82, 0.7229167, NaN, NaN, NaN, 2.05152, 5106.54
111.44, 1024.78, 0.7242501, NaN, NaN, NaN, 2.05152, 5116.31
111.64, 1022.82, 0.7256667, NaN, NaN, NaN, 2.04175, 5106.54
111.84, 1024.78, 0.726917, NaN, NaN, NaN, 2.05152, 5116.31
112.04, 1022.82, 0.72825, NaN, NaN, NaN, 2.05152, 5106.54
112.24, 1022.82, 0.7295834, NaN, NaN, NaN, 2.05152, 5106.54
112.44, 1022.82, 0.7309167, NaN, NaN, NaN, 2.05152, 5106.54
112.64, 1022.82, 0.73225, NaN, NaN, NaN, 2.05152, 5106.54
112.84, 1022.82, 0.7335834, NaN, NaN, NaN, 2.05152, 5106.54
113.04, 1020.86, 0.7349167, NaN, NaN, NaN, 2.05152, 5096.775
113.24, 1020.86, 0.73625, NaN, NaN, NaN, 2.05152, 5096.775
113.44, 1022.82, 0.737583, NaN, NaN, NaN, 2.05152, 5106.54
113.64, 1020.86, 0.7389167, NaN, NaN, NaN, 2.05152, 5096.775
113.84, 1022.82, 0.74025, NaN, NaN, NaN, 2.05152, 5106.54
114.04, 1022.82, 0.741583, NaN, NaN, NaN, 2.05152, 5106.54
114.24, 1020.86, 0.7429167, NaN, NaN, NaN, 2.05152, 5096.775
114.44, 1022.82, 0.74425, NaN, NaN, NaN, 2.05152, 5106.54
114.64, 1022.82, 0.7456667, NaN, NaN, NaN, 2.04175, 5106.54
114.84, 1022.82, 0.747, NaN, NaN, NaN, 2.04175, 5106.54
115.04, 1020.86, 0.748333, NaN, NaN, NaN, 2.04175, 5096.775
115.24, 1018.91, 0.749667, NaN, NaN, NaN, 2.04175, 5087.008
115.44, 1020.86, 0.750917, NaN, NaN, NaN, 2.05152, 5096.775
115.64, 1020.86, 0.75225, NaN, NaN, NaN, 2.05152, 5096.775
115.84, 1018.91, 0.7535833, NaN, NaN, NaN, 2.05152, 5087.008
116.04, 1018.91, 0.754917, NaN, NaN, NaN, 2.05152, 5087.008
116.24, 1020.86, 0.75625, NaN, NaN, NaN, 2.05152, 5096.775
116.44, 1018.91, 0.7575833, NaN, NaN, NaN, 2.05152, 5087.008
116.64, 1020.86, 0.7589167, NaN, NaN, NaN, 2.05152, 5096.775
116.84, 1020.86, 0.76025, NaN, NaN, NaN, 2.05152, 5096.775
117.04, 1018.91, 0.7615833, NaN, NaN, NaN, 2.05152, 5087.008
117.24, 1020.86, 0.7629167, NaN, NaN, NaN, 2.05152, 5096.775
117.44, 1020.86, 0.76425, NaN, NaN, NaN, 2.05152, 5096.775
117.64, 1020.86, 0.765583, NaN, NaN, NaN, 2.05152, 5096.775
117.84, 1018.91, 0.766917, NaN, NaN, NaN, 2.05152, 5087.008
118.04, 1018.91, 0.7683334, NaN, NaN, NaN, 2.04175, 5087.008
118.24, 1018.91, 0.7696667, NaN, NaN, NaN, 2.05152, 5087.008
118.44, 1020.86, 0.7709167, NaN, NaN, NaN, 2.05152, 5096.775
118.64, 1018.91, 0.77225, NaN, NaN, NaN, 2.05152, 5087.008
118.84, 1018.91, 0.773583, NaN, NaN, NaN, 2.05152, 5087.008
119.04, 1020.86, 0.7749167, NaN, NaN, NaN, 2.05152, 5096.775
119.24, 1018.91, 0.77625, NaN, NaN, NaN, 2.05152, 5087.008
119.44, 1018.91, 0.777583, NaN, NaN, NaN, 2.05152, 5087.008
119.64, 1018.91, 0.7789167, NaN, NaN, NaN, 2.05152, 5087.008
119.84, 1016.95, 0.78025, NaN, NaN, NaN, 2.05152, 5077.24
120.04, 1020.86, 0.781583, NaN, NaN, NaN, 2.05152, 5096.775
120.24, 1018.91, 0.7829167, NaN, NaN, NaN, 2.05152, 5087.008
120.44, 1018.91, 0.78425, NaN, NaN, NaN, 2.05152, 5087.008
120.64, 1018.91, 0.7855834, NaN, NaN, NaN, 2.05152, 5087.008
120.84, 1018.91, 0.7869167, NaN, NaN, NaN, 2.05152, 5087.008
121.04, 1018.91, 0.78825, NaN, NaN, NaN, 2.05152, 5087.008
121.24, 1018.91, 0.7895833, NaN, NaN, NaN, 2.05152, 5087.008
121.44, 1016.95, 0.7909167, NaN, NaN, NaN, 2.05152, 5077.24
121.64, 1016.95, 0.79225, NaN, NaN, NaN, 2.05152, 5077.24
121.84, 1016.95, 0.793583, NaN, NaN, NaN, 2.05152, 5077.24
122.04, 1018.91, 0.7949167, NaN, NaN, NaN, 2.05152, 5087.008
122.24, 1018.91, 0.79625, NaN, NaN, NaN, 2.05152, 5087.008
122.44, 1016.95, 0.797583, NaN, NaN, NaN, 2.05152, 5077.24
122.64, 1016.95, 0.7989167, NaN, NaN, NaN, 2.05152, 5077.24
122.84, 1016.95, 0.80025, NaN, NaN, NaN, 2.05152, 5077.24
123.04, 1018.91, 0.801583, NaN, NaN, NaN, 2.05152, 5087.008
123.24, 1016.95, 0.802917, NaN, NaN, NaN, 2.05152, 5077.24
123.44, 1016.95, 0.80425, NaN, NaN, NaN, 2.05152, 5077.24
123.64, 1016.95, 0.805583, NaN, NaN, NaN, 2.05152, 5077.24
123.84, 1018.91, 0.806917, NaN, NaN, NaN, 2.05152, 5087.008
124.04, 1018.91, 0.8083334, NaN, NaN, NaN, 2.05152, 5087.008
124.24, 1016.95, 0.8096667, NaN, NaN, NaN, 2.05152, 5077.24
124.44, 1016.95, 0.811, NaN, NaN, NaN, 2.05152, 5077.24
124.64, 1018.91, 0.81225, NaN, NaN, NaN, 2.05152, 5087.008
124.84, 1016.95, 0.8135834, NaN, NaN, NaN, 2.05152, 5077.24
125.04, 1016.95, 0.814917, NaN, NaN, NaN, 2.05152, 5077.24
125.24, 1016.95, 0.81625, NaN, NaN, NaN, 2.05152, 5077.24
125.44, 1014.99, 0.8175834, NaN, NaN, NaN, 2.05152, 5067.47
125.64, 1014.99, 0.818917, NaN, NaN, NaN, 2.05152, 5067.47
125.84, 1016.95, 0.82025, NaN, NaN, NaN, 2.05152, 5077.24
126.04, 1014.99, 0.8215834, NaN, NaN, NaN, 2.05152, 5067.47
126.24, 1014.99, 0.8229167, NaN, NaN, NaN, 2.05152, 5067.47
126.44, 1016.95, 0.82425, NaN, NaN, NaN, 2.05152, 5077.24
126.64, 1014.99, 0.8255834, NaN, NaN, NaN, 2.05152, 5067.47
126.84, 1016.95, 0.8269167, NaN, NaN, NaN, 2.05152, 5077.24
127.04, 1014.99, 0.82825, NaN, NaN, NaN, 2.05152, 5067.47
127.24, 1016.95, 0.829583, NaN, NaN, NaN, 2.05152, 5077.24
127.44, 1014.99, 0.831, NaN, NaN, NaN, 2.04175, 5067.47
127.64, 1014.99, 0.83225, NaN, NaN, NaN, 2.05152, 5067.47
127.84, 1014.99, 0.833583, NaN, NaN, NaN, 2.05152, 5067.47
128.04, 1014.99, 0.8349167, NaN, NaN, NaN, 2.05152, 5067.47
128.24, 1014.99, 0.83625, NaN, NaN, NaN, 2.05152, 5067.47
128.44, 1014.99, 0.837583, NaN, NaN, NaN, 2.05152, 5067.47
128.64, 1014.99, 0.838917, NaN, NaN, NaN, 2.05152, 5067.47
128.84, 1014.99, 0.84025, NaN, NaN, NaN, 2.05152, 5067.47
129.04, 1013.04, 0.8415834, NaN, NaN, NaN, 2.05152, 5057.71
129.24, 1014.99, 0.842917, NaN, NaN, NaN, 2.05152, 5067.47
129.44, 1014.99, 0.84425, NaN, NaN, NaN, 2.05152, 5067.47
129.64, 1014.99, 0.8455833, NaN, NaN, NaN, 2.05152, 5067.47
129.84, 1013.04, 0.8469167, NaN, NaN, NaN, 2.05152, 5057.71
130.04, 1014.99, 0.84825, NaN, NaN, NaN, 2.05152, 5067.47
130.24, 1014.99, 0.8496667, NaN, NaN, NaN, 2.04175, 5067.47
130.44, 1014.99, 0.8510001, NaN, NaN, NaN, 2.04175, 5067.47
130.64, 1014.99, 0.852333, NaN, NaN, NaN, 2.04175, 5067.47
130.84, 1013.04, 0.8536667, NaN, NaN, NaN, 2.05152, 5057.71
131.04, 1014.99, 0.854917, NaN, NaN, NaN, 2.05152, 5067.47
131.24, 1014.99, 0.85625, NaN, NaN, NaN, 2.05152, 5067.47
131.44, 1013.04, 0.857583, NaN, NaN, NaN, 2.05152, 5057.71
131.64, 1014.99, 0.858917, NaN, NaN, NaN, 2.05152, 5067.47
131.84, 1013.04, 0.86025, NaN, NaN, NaN, 2.05152, 5057.71
132.04, 1014.99, 0.8615834, NaN, NaN, NaN, 2.05152, 5067.47
132.24, 1014.99, 0.8629167, NaN, NaN, NaN, 2.05152, 5067.47
132.44, 1014.99, 0.86425, NaN, NaN, NaN, 2.05152, 5067.47
132.64, 1013.04, 0.865583, NaN, NaN, NaN, 2.05152, 5057.71
132.84, 1014.99, 0.8669167, NaN, NaN, NaN, 2.05152, 5067.47
133.04, 1014.99, 0.8682501, NaN, NaN, NaN, 2.05152, 5067.47
133.24, 1013.04, 0.869583, NaN, NaN, NaN, 2.05152, 5057.71
133.44, 1014.99, 0.871, NaN, NaN, NaN, 2.04175, 5067.47
133.64, 1014.99, 0.872333, NaN, NaN, NaN, 2.04175, 5067.47
133.84, 1013.04, 0.8735834, NaN, NaN, NaN, 2.05152, 5057.71
134.04, 1013.04, 0.874917, NaN, NaN, NaN, 2.05152, 5057.71
134.24, 1013.04, 0.87625, NaN, NaN, NaN, 2.05152, 5057.71
134.44, 1013.04, 0.8775834, NaN, NaN, NaN, 2.05152, 5057.71
134.64, 1013.04, 0.8789167, NaN, NaN, NaN, 2.05152, 5057.71
134.84, 1013.04, 0.88025, NaN, NaN, NaN, 2.05152, 5057.71
135.04, 1013.04, 0.881583, NaN, NaN, NaN, 2.05152, 5057.71
135.24, 1013.04, 0.8829167, NaN, NaN, NaN, 2.05152, 5057.71
135.44, 1014.99, 0.88425, NaN, NaN, NaN, 2.05152, 5067.47
135.64, 1013.04, 0.885583, NaN, NaN, NaN, 2.05152, 5057.71
135.84, 1013.04, 0.8869167, NaN, NaN, NaN, 2.05152, 5057.71
136.04, 1013.04, 0.88825, NaN, NaN, NaN, 2.05152, 5057.71
136.24, 1013.04, 0.889583, NaN, NaN, NaN, 2.05152, 5057.71
136.44, 1013.04, 0.891, NaN, NaN, NaN, 2.04175, 5057.71
136.64, 1013.04, 0.8923334, NaN, NaN, NaN, 2.04175, 5057.71
136.84, 1014.99, 0.893667, NaN, NaN, NaN, 2.04175, 5067.47
137.04, 1013.04, 0.895, NaN, NaN, NaN, 2.04175, 5057.71
137.24, 1013.04, 0.8963334, NaN, NaN, NaN, 2.05152, 5057.71
137.44, 1013.04, 0.8975833, NaN, NaN, NaN, 2.05152, 5057.71
137.64, 1013.04, 0.898917, NaN, NaN, NaN, 2.05152, 5057.71
137.84, 1014.99, 0.90025, NaN, NaN, NaN, 2.05152, 5067.47
138.04, 1013.04, 0.9015833, NaN, NaN, NaN, 2.05152, 5057.71
138.24, 1013.04, 0.902917, NaN, NaN, NaN, 2.05152, 5057.71
138.44, 1013.04, 0.90425, NaN, NaN, NaN, 2.05152, 5057.71
138.64, 1013.04, 0.9055833, NaN, NaN, NaN, 2.05152, 5057.71
138.84, 1014.99, 0.906917, NaN, NaN, NaN, 2.05152, 5067.47
139.04, 1013.04, 0.90825, NaN, NaN, NaN, 2.05152, 5057.71
139.24, 1014.99, 0.9095834, NaN, NaN, NaN, 2.05152, 5067.47
139.44, 1014.99, 0.910917, NaN, NaN, NaN, 2.05152, 5067.47
139.64, 1014.99, 0.912333, NaN, NaN, NaN, 2.04175, 5067.47
139.84, 1014.99, 0.913667, NaN, NaN, NaN, 2.04175, 5067.47
140.04, 1014.99, 0.915, NaN, NaN, NaN, 2.04175, 5067.47
140.24, 1014.99, 0.9163334, NaN, NaN, NaN, 2.04175, 5067.47
140.44, 1014.99, 0.9176667, NaN, NaN, NaN, 2.04175, 5067.47
140.64, 1014.99, 0.9189167, NaN, NaN, NaN, 2.05152, 5067.47
140.84, 1014.99, 0.92025, NaN, NaN, NaN, 2.05152, 5067.47
141.04, 1014.99, 0.921583, NaN, NaN, NaN, 2.05152, 5067.47
141.24, 1014.99, 0.9229167, NaN, NaN, NaN, 2.05152, 5067.47
141.44, 1014.99, 0.92425, NaN, NaN, NaN, 2.05152, 5067.47
141.64, 1014.99, 0.925583, NaN, NaN, NaN, 2.05152, 5067.47
141.84, 1013.04, 0.9269167, NaN, NaN, NaN, 2.05152, 5057.71
142.04, 1014.99, 0.92825, NaN, NaN, NaN, 2.05152, 5067.47
142.24, 1014.99, 0.9295834, NaN, NaN, NaN, 2.05152, 5067.47
142.44, 1014.99, 0.931, NaN, NaN, NaN, 2.05152, 5067.47
142.64, 1014.99, 0.932333, NaN, NaN, NaN, 2.04175, 5067.47
142.84, 1014.99, 0.933667, NaN, NaN, NaN, 2.04175, 5067.47
143.04, 1014.99, 0.935, NaN, NaN, NaN, 2.04175, 5067.47
143.24, 1013.04, 0.9363334, NaN, NaN, NaN, 2.04175, 5057.71
143.44, 1014.99, 0.9376667, NaN, NaN, NaN, 2.04175, 5067.47
143.64, 1014.99, 0.939, NaN, NaN, NaN, 2.04175, 5067.47
143.84, 1014.99, 0.94025, NaN, NaN, NaN, 2.05152, 5067.47
144.04, 1014.99, 0.941583, NaN, NaN, NaN, 2.05152, 5067.47
144.24, 1014.99, 0.9429167, NaN, NaN, NaN, 2.05152, 5067.47
144.44, 1014.99, 0.94425, NaN, NaN, NaN, 2.05152, 5067.47
144.64, 1014.99, 0.945583, NaN, NaN, NaN, 2.05152, 5067.47
144.84, 1014.99, 0.946917, NaN, NaN, NaN, 2.05152, 5067.47
145.04, 1014.99, 0.94825, NaN, NaN, NaN, 2.05152, 5067.47
145.24, 1014.99, 0.949583, NaN, NaN, NaN, 2.05152, 5067.47
145.44, 1014.99, 0.950917, NaN, NaN, NaN, 2.05152, 5067.47
145.64, 1016.95, 0.9523334, NaN, NaN, NaN, 2.04175, 5077.24
145.84, 1016.95, 0.9536667, NaN, NaN, NaN, 2.04175, 5077.24
146.04, 1016.95, 0.9550833, NaN, NaN, NaN, 2.04175, 5077.24
146.24, 1016.95, 0.956417, NaN, NaN, NaN, 2.03321, 5077.24
146.44, 1016.95, 0.9576667, NaN, NaN, NaN, 2.04175, 5077.24
146.64, 1016.95, 0.959, NaN, NaN, NaN, 2.04175, 5077.24
146.84, 1014.99, 0.960333, NaN, NaN, NaN, 2.04175, 5067.47
147.04, 1014.99, 0.9616667, NaN, NaN, NaN, 2.05152, 5067.47
147.24, 1016.95, 0.962917, NaN, NaN, NaN, 2.05152, 5077.24
147.44, 1016.95, 0.96425, NaN, NaN, NaN, 2.05152, 5077.24
147.64, 1016.95, 0.9655834, NaN, NaN, NaN, 2.05152, 5077.24
147.84, 1014.99, 0.9669167, NaN, NaN, NaN, 2.05152, 5067.47
148.04, 1014.99, 0.96825, NaN, NaN, NaN, 2.05152, 5067.47
148.24, 1014.99, 0.9695834, NaN, NaN, NaN, 2.05152, 5067.47
148.44, 1016.95, 0.9709167, NaN, NaN, NaN, 2.05152, 5077.24
148.64, 1016.95, 0.9723333, NaN, NaN, NaN, 2.04175, 5077.24
148.84, 1016.95, 0.973667, NaN, NaN, NaN, 2.04175, 5077.24
149.04, 1016.95, 0.975083, NaN, NaN, NaN, 2.03321, 5077.24
149.24, 1016.95, 0.9764167, NaN, NaN, NaN, 2.03321, 5077.24
149.44, 1016.95, 0.97775, NaN, NaN, NaN, 2.03321, 5077.24
149.64, 1014.99, 0.979, NaN, NaN, NaN, 2.04175, 5067.47
149.84, 1016.95, 0.9803333, NaN, NaN, NaN, 2.04175, 5077.24
150.04, 1016.95, 0.9816667, NaN, NaN, NaN, 2.04175, 5077.24
150.24, 1016.95, 0.983, NaN, NaN, NaN, 2.04175, 5077.24
150.44, 1014.99, 0.98425, NaN, NaN, NaN, 2.05152, 5067.47
150.64, 1016.95, 0.985583, NaN, NaN, NaN, 2.05152, 5077.24
150.84, 1016.95, 0.986917, NaN, NaN, NaN, 2.05152, 5077.24
151.04, 1016.95, 0.98825, NaN, NaN, NaN, 2.05152, 5077.24
151.24, 1016.95, 0.9895833, NaN, NaN, NaN, 2.05152, 5077.24
151.44, 1016.95, 0.990917, NaN, NaN, NaN, 2.05152, 5077.24
151.64, 1016.95, 0.99225, NaN, NaN, NaN, 2.05152, 5077.24
151.84, 1018.91, 0.9936667, NaN, NaN, NaN, 2.04175, 5087.008
152.04, 1016.95, 0.995, NaN, NaN, NaN, 2.04175, 5077.24
152.24, 1016.95, 0.9964167, NaN, NaN, NaN, 2.03321, 5077.24
152.44, 1018.91, 0.99775, NaN, NaN, NaN, 2.03321, 5087.008
152.64, 1018.91, 0.999083, NaN, NaN, NaN, 2.03321, 5087.008
152.84, 1018.91, 1.00042, NaN, NaN, NaN, 2.03321, 5087.008
153.04, 1018.91, 1.00175, NaN, NaN, NaN, 2.04175, 5087.008
153.24, 1016.95, 1.003, NaN, NaN, NaN, 2.04175, 5077.24
153.44, 1016.95, 1.00433, NaN, NaN, NaN, 2.04175, 5077.24
153.64, 1018.91, 1.00558, NaN, NaN, NaN, 2.05152, 5087.008
153.84, 1016.95, 1.00692, NaN, NaN, NaN, 2.05152, 5077.24
154.04, 1016.95, 1.00825, NaN, NaN, NaN, 2.05152, 5077.24
154.24, 1016.95, 1.00958, NaN, NaN, NaN, 2.05152, 5077.24
154.44, 1018.91, 1.01092, NaN, NaN, NaN, 2.05152, 5087.008
154.64, 1018.91, 1.01225, NaN, NaN, NaN, 2.05152, 5087.008
154.84, 1016.95, 1.01367, NaN, NaN, NaN, 2.04175, 5077.24
155.04, 1016.95, 1.015, NaN, NaN, NaN, 2.04175, 5077.24
155.24, 1018.91, 1.01642, NaN, NaN, NaN, 2.03321, 5087.008
155.44, 1018.91, 1.01775, NaN, NaN, NaN, 2.03321, 5087.008
155.64, 1018.91, 1.01908, NaN, NaN, NaN, 2.03321, 5087.008
155.84, 1018.91, 1.02042, NaN, NaN, NaN, 2.03321, 5087.008
156.04, 1018.91, 1.02175, NaN, NaN, NaN, 2.04175, 5087.008
156.24, 1018.91, 1.023, NaN, NaN, NaN, 2.04175, 5087.008
156.44, 1016.95, 1.02433, NaN, NaN, NaN, 2.04175, 5077.24
156.64, 1018.91, 1.02567, NaN, NaN, NaN, 2.04175, 5087.008
156.84, 1018.91, 1.02692, NaN, NaN, NaN, 2.05152, 5087.008
157.04, 1016.95, 1.02825, NaN, NaN, NaN, 2.05152, 5077.24
157.24, 1016.95, 1.02958, NaN, NaN, NaN, 2.05152, 5077.24
157.44, 1018.91, 1.03092, NaN, NaN, NaN, 2.05152, 5087.008
157.64, 1016.95, 1.03225, NaN, NaN, NaN, 2.05152, 5077.24
157.84, 1016.95, 1.03358, NaN, NaN, NaN, 2.05152, 5077.24
158.04, 1016.95, 1.035, NaN, NaN, NaN, 2.04175, 5077.24
158.24, 1018.91, 1.03633, NaN, NaN, NaN, 2.04175, 5087.008
158.44, 1018.91, 1.03775, NaN, NaN, NaN, 2.03321, 5087.008
158.64, 1016.95, 1.03908, NaN, NaN, NaN, 2.03321, 5077.24
158.84, 1016.95, 1.04042, NaN, NaN, NaN, 2.03321, 5077.24
159.04, 1018.91, 1.04175, NaN, NaN, NaN, 2.03321, 5087.008
159.24, 1016.95, 1.04308, NaN, NaN, NaN, 2.03321, 5077.24
159.44, 1016.95, 1.04433, NaN, NaN, NaN, 2.04175, 5077.24
159.64, 1014.99, 1.04567, NaN, NaN, NaN, 2.04175, 5067.47
159.84, 1014.99, 1.047, NaN, NaN, NaN, 2.04175, 5067.47
160.04, 1014.99, 1.04825, NaN, NaN, NaN, 2.05152, 5067.47
160.24, 1011.082, 1.04958, NaN, NaN, NaN, 2.05152, 5047.94
160.44, 1013.04, 1.05092, NaN, NaN, NaN, 2.05152, 5057.71
160.64, 1013.04, 1.05225, NaN, NaN, NaN, 2.05152, 5057.71
160.84, 1013.04, 1.05358, NaN, NaN, NaN, 2.05152, 5057.71
161.04, 1011.082, 1.05492, NaN, NaN, NaN, 2.05152, 5047.94
161.24, 1009.13, 1.05633, NaN, NaN, NaN, 2.04175, 5038.173
161.44, 1007.17, 1.05767, NaN, NaN, NaN, 2.04175, 5028.406
161.64, 1007.17, 1.05908, NaN, NaN, NaN, 2.03321, 5028.406
161.84, 1003.26, 1.06042, NaN, NaN, NaN, 2.03321, 5008.872
162.04, 999.344, 1.06175, NaN, NaN, NaN, 2.03321, 4989.34
162.24, 995.4317, 1.06308, NaN, NaN, NaN, 2.03321, 4969.804
162.44, 989.563, 1.06442, NaN, NaN, NaN, 2.04175, 4940.5
162.64, 983.694, 1.06567, NaN, NaN, NaN, 2.04175, 4911.202
162.84, 971.9563, 1.067, NaN, NaN, NaN, 2.04175, 4852.6
163.04, 962.175, 1.06833, NaN, NaN, NaN, 2.04175, 4803.77
163.24, 946.5246, 1.06958, NaN, NaN, NaN, 2.05152, 4725.63
163.44, 926.962, 1.07092, NaN, NaN, NaN, 2.05152, 4627.96
163.64, 895.6612, 1.07225, NaN, NaN, NaN, 2.05152, 4471.69
163.84, 852.6229, 1.07358, NaN, NaN, NaN, 2.05152, 4256.82
164.04, 778.2841, 1.07492, NaN, NaN, NaN, 2.05152, 3885.67
164.05, -101.674, 1.07508, NaN, NaN, NaN, 2.04175, -507.619